subj,part,trial,blck,tori,conf,rt,resp,err
1,1,1,1,1,1,592,1,0
1,1,2,1,1,3,571,1,0
1,1,3,1,2,3,602,3,0
1,1,4,1,2,2,652,3,0
1,1,5,1,1,1,525,1,0
1,1,6,1,2,3,627,3,0
1,1,7,1,1,4,0,0,0
1,1,8,1,1,4,0,0,0
1,1,9,1,1,2,532,1,0
1,1,10,1,2,4,0,0,0
1,1,11,1,1,2,533,3,1
1,1,12,1,2,1,729,3,0
1,1,13,1,2,2,571,3,0
1,1,14,1,2,4,0,0,0
1,1,15,1,2,2,616,3,0
1,1,16,1,1,3,408,1,0
1,1,17,1,1,3,411,1,0
1,1,18,1,1,2,518,1,0
1,1,19,1,1,4,0,0,0
1,1,20,1,2,1,540,3,0
1,1,21,1,2,3,515,3,0
1,1,22,1,2,4,0,0,0
1,1,23,1,2,4,0,0,0
1,1,24,1,1,4,0,0,0
1,1,25,1,1,4,0,0,0
1,1,26,1,1,3,486,1,0
1,1,27,1,1,4,0,0,0
1,1,28,1,1,2,517,3,1
1,1,29,1,2,1,671,3,0
1,1,30,1,1,4,0,0,0
1,1,31,1,2,1,665,3,0
1,1,32,1,2,1,672,3,0
1,1,33,1,1,4,0,0,0
1,1,34,1,1,3,492,1,0
1,1,35,1,1,3,533,3,1
1,1,36,1,1,3,779,1,0
1,1,37,1,1,2,545,1,0
1,1,38,1,1,1,2590,1,0
1,1,39,1,2,3,639,3,0
1,1,40,1,1,2,551,1,0
1,1,41,1,2,3,594,3,0
1,1,42,1,1,2,604,1,0
1,1,43,1,2,3,597,3,0
1,1,44,1,2,1,634,3,0
1,1,45,1,1,4,0,0,0
1,1,46,1,2,1,690,3,0
1,1,47,1,2,3,632,3,0
1,1,48,1,1,2,519,1,0
1,1,49,1,2,3,514,1,1
1,1,50,1,2,4,0,0,0
1,1,51,1,2,4,0,0,0
1,1,52,1,1,1,786,1,0
1,1,53,1,1,3,566,1,0
1,1,54,1,2,1,789,3,0
1,1,55,1,2,4,0,0,0
1,1,56,1,2,4,0,0,0
1,1,57,1,1,4,0,0,0
1,1,58,1,2,3,955,3,0
1,1,59,1,1,3,648,1,0
1,1,60,1,1,4,0,0,0
1,1,61,1,2,3,694,3,0
1,1,62,1,1,4,0,0,0
1,1,63,1,1,3,551,1,0
1,1,64,1,1,2,566,1,0
1,1,65,1,1,4,0,0,0
1,1,66,1,2,4,0,0,0
1,1,67,1,2,1,730,3,0
1,1,68,1,1,2,593,1,0
1,1,69,1,1,2,597,1,0
1,1,70,1,1,3,526,1,0
1,1,71,1,2,1,552,3,0
1,1,72,1,1,4,0,0,0
1,1,73,2,1,2,600,1,0
1,1,74,2,1,4,0,0,0
1,1,75,2,2,3,615,3,0
1,1,76,2,2,2,583,3,0
1,1,77,2,2,4,0,0,0
1,1,78,2,1,1,502,1,0
1,1,79,2,2,2,564,3,0
1,1,80,2,2,1,843,3,0
1,1,81,2,2,3,631,3,0
1,1,82,2,1,2,460,1,0
1,1,83,2,1,2,458,1,0
1,1,84,2,2,3,481,3,0
1,1,85,2,2,2,604,3,0
1,1,86,2,1,4,0,0,0
1,1,87,2,2,4,0,0,0
1,1,88,2,1,1,474,1,0
1,1,89,2,1,4,0,0,0
1,1,90,2,1,1,461,1,0
1,1,91,2,1,1,546,1,0
1,1,92,2,2,3,488,3,0
1,1,93,2,2,3,475,3,0
1,1,94,2,1,2,411,1,0
1,1,95,2,2,3,606,3,0
1,1,96,2,1,4,0,0,0
1,1,97,2,1,4,0,0,0
1,1,98,2,1,3,491,1,0
1,1,99,2,2,2,509,1,1
1,1,100,2,2,3,533,3,0
1,1,101,2,1,3,506,1,0
1,1,102,2,2,2,584,1,1
1,1,103,2,1,2,648,1,0
1,1,104,2,1,1,667,1,0
1,1,105,2,1,1,721,1,0
1,1,106,2,2,4,0,0,0
1,1,107,2,2,3,642,3,0
1,1,108,2,2,1,638,3,0
1,1,109,2,1,3,475,1,0
1,1,110,2,2,3,616,3,0
1,1,111,2,2,3,572,3,0
1,1,112,2,2,3,467,1,1
1,1,113,2,2,3,623,3,0
1,1,114,2,2,2,589,3,0
1,1,115,2,1,1,620,1,0
1,1,116,2,2,2,756,3,0
1,1,117,2,1,2,607,1,0
1,1,118,2,2,1,605,3,0
1,1,119,2,1,2,614,1,0
1,1,120,2,2,4,0,0,0
1,1,121,2,1,2,602,1,0
1,1,122,2,1,3,733,1,0
1,1,123,2,2,2,591,3,0
1,1,124,2,2,4,0,0,0
1,1,125,2,1,3,576,1,0
1,1,126,2,1,2,516,1,0
1,1,127,2,2,3,575,3,0
1,1,128,2,2,2,606,3,0
1,1,129,2,1,2,528,1,0
1,1,130,2,1,1,567,1,0
1,1,131,2,2,4,0,0,0
1,1,132,2,2,4,0,0,0
1,1,133,2,2,3,627,3,0
1,1,134,2,2,2,618,3,0
1,1,135,2,1,4,0,0,0
1,1,136,2,1,3,548,1,0
1,1,137,2,2,1,609,3,0
1,1,138,2,2,2,668,3,0
1,1,139,2,2,4,0,0,0
1,1,140,2,1,3,576,1,0
1,1,141,2,2,4,0,0,0
1,1,142,2,1,1,513,1,0
1,1,143,2,1,3,502,1,0
1,1,144,2,2,2,498,3,0
1,1,145,3,1,4,0,0,0
1,1,146,3,1,4,0,0,0
1,1,147,3,2,3,636,3,0
1,1,148,3,2,2,535,1,1
1,1,149,3,1,2,605,1,0
1,1,150,3,1,1,821,1,0
1,1,151,3,2,2,626,3,0
1,1,152,3,2,4,0,0,0
1,1,153,3,2,4,0,0,0
1,1,154,3,2,2,592,3,0
1,1,155,3,1,2,543,1,0
1,1,156,3,1,1,516,1,0
1,1,157,3,1,3,518,1,0
1,1,158,3,2,2,545,3,0
1,1,159,3,1,2,541,1,0
1,1,160,3,2,3,934,3,0
1,1,161,3,2,4,0,0,0
1,1,162,3,1,3,652,1,0
1,1,163,3,1,1,579,1,0
1,1,164,3,1,3,505,1,0
1,1,165,3,1,2,484,1,0
1,1,166,3,2,3,546,3,0
1,1,167,3,1,4,0,0,0
1,1,168,3,2,2,581,3,0
1,1,169,3,2,1,490,3,0
1,1,170,3,1,3,516,1,0
1,1,171,3,2,3,551,3,0
1,1,172,3,1,3,481,1,0
1,1,173,3,1,4,0,0,0
1,1,174,3,1,2,642,1,0
1,1,175,3,1,1,683,1,0
1,1,176,3,1,3,563,1,0
1,1,177,3,1,2,506,3,1
1,1,178,3,1,3,565,1,0
1,1,179,3,2,4,0,0,0
1,1,180,3,1,1,678,1,0
1,1,181,3,1,3,495,1,0
1,1,182,3,2,2,487,3,0
1,1,183,3,1,3,534,1,0
1,1,184,3,1,3,902,1,0
1,1,185,3,2,4,0,0,0
1,1,186,3,1,2,629,1,0
1,1,187,3,2,3,519,3,0
1,1,188,3,2,4,0,0,0
1,1,189,3,2,2,914,3,0
1,1,190,3,1,1,612,1,0
1,1,191,3,2,1,627,3,0
1,1,192,3,1,4,0,0,0
1,1,193,3,1,2,607,1,0
1,1,194,3,1,2,842,1,0
1,1,195,3,1,1,549,1,0
1,1,196,3,2,1,547,3,0
1,1,197,3,1,4,0,0,0
1,1,198,3,2,3,582,3,0
1,1,199,3,1,1,596,1,0
1,1,200,3,1,1,501,1,0
1,1,201,3,1,2,529,1,0
1,1,202,3,2,1,594,3,0
1,1,203,3,2,4,0,0,0
1,1,204,3,1,1,627,1,0
1,1,205,3,2,4,0,0,0
1,1,206,3,1,4,0,0,0
1,1,207,3,2,4,0,0,0
1,1,208,3,2,2,557,3,0
1,1,209,3,2,4,0,0,0
1,1,210,3,2,4,0,0,0
1,1,211,3,2,3,624,3,0
1,1,212,3,2,2,487,1,1
1,1,213,3,1,3,614,1,0
1,1,214,3,1,4,0,0,0
1,1,215,3,1,2,515,1,0
1,1,216,3,2,2,536,3,0
1,1,217,4,1,2,591,1,0
1,1,218,4,1,3,555,1,0
1,1,219,4,1,1,604,1,0
1,1,220,4,1,2,452,1,0
1,1,221,4,2,3,483,3,0
1,1,222,4,1,4,0,0,0
1,1,223,4,1,4,0,0,0
1,1,224,4,2,2,722,3,0
1,1,225,4,1,4,0,0,0
1,1,226,4,2,1,552,3,0
1,1,227,4,2,1,487,3,0
1,1,228,4,1,1,489,1,0
1,1,229,4,1,4,0,0,0
1,1,230,4,1,2,574,1,0
1,1,231,4,2,3,659,3,0
1,1,232,4,1,1,591,1,0
1,1,233,4,2,4,0,0,0
1,1,234,4,1,4,0,0,0
1,1,235,4,2,4,0,0,0
1,1,236,4,2,3,534,3,0
1,1,237,4,1,1,540,1,0
1,1,238,4,2,3,541,3,0
1,1,239,4,1,4,0,0,0
1,1,240,4,2,1,490,3,0
1,1,241,4,1,4,0,0,0
1,1,242,4,2,1,526,3,0
1,1,243,4,1,2,503,1,0
1,1,244,4,2,4,0,0,0
1,1,245,4,2,2,634,3,0
1,1,246,4,1,3,564,1,0
1,1,247,4,2,2,615,3,0
1,1,248,4,1,1,469,1,0
1,1,249,4,2,3,476,1,1
1,1,250,4,2,2,636,3,0
1,1,251,4,2,4,0,0,0
1,1,252,4,2,3,574,3,0
1,1,253,4,2,4,0,0,0
1,1,254,4,1,1,593,1,0
1,1,255,4,2,4,0,0,0
1,1,256,4,2,3,496,3,0
1,1,257,4,2,4,0,0,0
1,1,258,4,2,1,532,3,0
1,1,259,4,2,4,0,0,0
1,1,260,4,2,1,637,3,0
1,1,261,4,1,1,562,1,0
1,1,262,4,1,2,626,1,0
1,1,263,4,2,2,505,3,0
1,1,264,4,1,1,619,1,0
1,1,265,4,1,3,568,1,0
1,1,266,4,2,4,0,0,0
1,1,267,4,1,2,619,1,0
1,1,268,4,2,2,497,3,0
1,1,269,4,2,2,632,1,1
1,1,270,4,1,1,631,1,0
1,1,271,4,1,3,524,1,0
1,1,272,4,1,3,555,1,0
1,1,273,4,1,2,523,3,1
1,1,274,4,2,4,0,0,0
1,1,275,4,1,4,0,0,0
1,1,276,4,1,2,589,1,0
1,1,277,4,1,3,668,1,0
1,1,278,4,1,1,602,1,0
1,1,279,4,2,4,0,0,0
1,1,280,4,2,1,583,3,0
1,1,281,4,1,1,655,1,0
1,1,282,4,1,1,558,1,0
1,1,283,4,2,4,0,0,0
1,1,284,4,1,1,494,1,0
1,1,285,4,2,4,0,0,0
1,1,286,4,1,2,581,1,0
1,1,287,4,2,1,502,3,0
1,1,288,4,2,4,0,0,0
1,1,289,5,2,4,0,0,0
1,1,290,5,2,2,537,3,0
1,1,291,5,2,1,474,3,0
1,1,292,5,1,2,477,1,0
1,1,293,5,2,3,495,3,0
1,1,294,5,1,4,0,0,0
1,1,295,5,2,1,474,1,1
1,1,296,5,1,3,540,1,0
1,1,297,5,2,1,568,3,0
1,1,298,5,2,2,657,3,0
1,1,299,5,1,4,0,0,0
1,1,300,5,2,3,527,3,0
1,1,301,5,1,4,0,0,0
1,1,302,5,2,2,450,3,0
1,1,303,5,2,3,545,3,0
1,1,304,5,2,2,431,3,0
1,1,305,5,2,2,470,3,0
1,1,306,5,2,4,0,0,0
1,1,307,5,1,1,447,1,0
1,1,308,5,2,3,429,3,0
1,1,309,5,2,3,528,3,0
1,1,310,5,2,1,497,3,0
1,1,311,5,1,4,0,0,0
1,1,312,5,2,2,465,3,0
1,1,313,5,1,1,454,1,0
1,1,314,5,2,3,542,3,0
1,1,315,5,1,2,507,1,0
1,1,316,5,1,2,625,1,0
1,1,317,5,2,3,630,3,0
1,1,318,5,1,3,637,1,0
1,1,319,5,2,1,513,3,0
1,1,320,5,1,4,0,0,0
1,1,321,5,2,2,510,3,0
1,1,322,5,1,1,556,1,0
1,1,323,5,2,4,0,0,0
1,1,324,5,2,4,0,0,0
1,1,325,5,1,1,521,1,0
1,1,326,5,2,4,0,0,0
1,1,327,5,1,1,660,1,0
1,1,328,5,2,4,0,0,0
1,1,329,5,2,2,672,3,0
1,1,330,5,1,3,517,1,0
1,1,331,5,2,2,589,3,0
1,1,332,5,2,2,522,3,0
1,1,333,5,2,2,439,3,0
1,1,334,5,1,1,495,1,0
1,1,335,5,2,4,0,0,0
1,1,336,5,1,2,1064,1,0
1,1,337,5,1,2,578,3,1
1,1,338,5,1,3,558,1,0
1,1,339,5,2,3,486,3,0
1,1,340,5,1,3,533,1,0
1,1,341,5,2,3,742,3,0
1,1,342,5,1,4,0,0,0
1,1,343,5,2,4,0,0,0
1,1,344,5,2,2,542,3,0
1,1,345,5,1,4,0,0,0
1,1,346,5,1,4,0,0,0
1,1,347,5,1,4,0,0,0
1,1,348,5,2,2,517,3,0
1,1,349,5,1,3,486,1,0
1,1,350,5,2,4,0,0,0
1,1,351,5,1,1,658,1,0
1,1,352,5,1,3,433,1,0
1,1,353,5,2,4,0,0,0
1,1,354,5,1,2,520,1,0
1,1,355,5,1,3,604,1,0
1,1,356,5,1,3,431,1,0
1,1,357,5,2,4,0,0,0
1,1,358,5,1,1,565,1,0
1,1,359,5,2,2,476,3,0
1,1,360,5,1,2,671,1,0
1,1,361,6,1,3,494,1,0
1,1,362,6,2,2,485,3,0
1,1,363,6,1,1,543,1,0
1,1,364,6,2,1,586,3,0
1,1,365,6,2,1,758,3,0
1,1,366,6,1,1,537,1,0
1,1,367,6,2,3,519,3,0
1,1,368,6,2,1,436,3,0
1,1,369,6,2,2,557,1,1
1,1,370,6,2,4,0,0,0
1,1,371,6,2,1,563,3,0
1,1,372,6,2,1,427,3,0
1,1,373,6,1,2,530,1,0
1,1,374,6,1,2,690,1,0
1,1,375,6,1,3,539,1,0
1,1,376,6,1,4,0,0,0
1,1,377,6,2,2,702,3,0
1,1,378,6,1,2,492,1,0
1,1,379,6,2,2,655,3,0
1,1,380,6,2,1,581,3,0
1,1,381,6,1,1,564,1,0
1,1,382,6,1,2,754,1,0
1,1,383,6,2,1,519,3,0
1,1,384,6,1,4,0,0,0
1,1,385,6,2,4,0,0,0
1,1,386,6,2,1,573,3,0
1,1,387,6,1,3,550,1,0
1,1,388,6,1,3,523,3,1
1,1,389,6,2,1,602,3,0
1,1,390,6,1,1,517,1,0
1,1,391,6,2,3,574,3,0
1,1,392,6,2,1,652,3,0
1,1,393,6,2,1,445,3,0
1,1,394,6,1,2,1319,1,0
1,1,395,6,1,4,0,0,0
1,1,396,6,1,1,599,1,0
1,1,397,6,2,4,0,0,0
1,1,398,6,2,3,514,3,0
1,1,399,6,1,4,0,0,0
1,1,400,6,2,1,597,3,0
1,1,401,6,1,4,0,0,0
1,1,402,6,1,4,0,0,0
1,1,403,6,2,1,599,3,0
1,1,404,6,1,2,508,1,0
1,1,405,6,1,4,0,0,0
1,1,406,6,1,4,0,0,0
1,1,407,6,2,1,669,3,0
1,1,408,6,1,4,0,0,0
1,1,409,6,2,1,589,3,0
1,1,410,6,2,1,666,3,0
1,1,411,6,1,3,526,1,0
1,1,412,6,2,1,509,3,0
1,1,413,6,1,3,552,1,0
1,1,414,6,1,3,574,1,0
1,1,415,6,1,1,499,3,1
1,1,416,6,1,4,0,0,0
1,1,417,6,1,1,531,1,0
1,1,418,6,2,1,457,3,0
1,1,419,6,1,2,714,1,0
1,1,420,6,1,4,0,0,0
1,1,421,6,2,2,650,3,0
1,1,422,6,2,3,475,3,0
1,1,423,6,1,3,443,1,0
1,1,424,6,1,4,0,0,0
1,1,425,6,2,1,534,3,0
1,1,426,6,1,2,523,3,1
1,1,427,6,1,3,523,1,0
1,1,428,6,2,1,535,3,0
1,1,429,6,2,2,576,3,0
1,1,430,6,2,3,526,3,0
1,1,431,6,1,4,0,0,0
1,1,432,6,1,1,563,1,0
1,1,433,7,2,2,570,3,0
1,1,434,7,1,4,0,0,0
1,1,435,7,2,3,554,3,0
1,1,436,7,2,3,483,3,0
1,1,437,7,2,2,534,3,0
1,1,438,7,1,3,478,1,0
1,1,439,7,2,1,579,3,0
1,1,440,7,2,1,540,3,0
1,1,441,7,2,2,520,3,0
1,1,442,7,1,4,0,0,0
1,1,443,7,2,2,497,3,0
1,1,444,7,2,1,471,3,0
1,1,445,7,2,4,0,0,0
1,1,446,7,2,4,0,0,0
1,1,447,7,2,4,0,0,0
1,1,448,7,1,3,458,1,0
1,1,449,7,2,4,0,0,0
1,1,450,7,1,4,0,0,0
1,1,451,7,2,2,461,3,0
1,1,452,7,2,3,562,3,0
1,1,453,7,1,2,532,1,0
1,1,454,7,2,4,0,0,0
1,1,455,7,2,1,495,3,0
1,1,456,7,1,3,348,1,0
1,1,457,7,1,2,464,1,0
1,1,458,7,1,1,533,1,0
1,1,459,7,1,3,437,1,0
1,1,460,7,2,3,490,3,0
1,1,461,7,2,1,563,3,0
1,1,462,7,1,2,651,1,0
1,1,463,7,2,3,514,3,0
1,1,464,7,1,2,452,1,0
1,1,465,7,2,2,547,3,0
1,1,466,7,1,1,487,1,0
1,1,467,7,1,3,482,1,0
1,1,468,7,2,4,0,0,0
1,1,469,7,1,1,597,1,0
1,1,470,7,1,1,495,1,0
1,1,471,7,1,1,452,3,1
1,1,472,7,2,2,594,3,0
1,1,473,7,2,1,546,3,0
1,1,474,7,1,2,543,1,0
1,1,475,7,2,2,522,3,0
1,1,476,7,2,4,0,0,0
1,1,477,7,1,2,442,1,0
1,1,478,7,1,1,459,1,0
1,1,479,7,1,1,751,1,0
1,1,480,7,1,2,546,1,0
1,1,481,7,2,1,492,3,0
1,1,482,7,1,1,451,1,0
1,1,483,7,2,3,515,3,0
1,1,484,7,1,3,428,3,1
1,1,485,7,2,1,704,3,0
1,1,486,7,1,2,523,1,0
1,1,487,7,1,4,0,0,0
1,1,488,7,1,1,473,1,0
1,1,489,7,1,1,484,1,0
1,1,490,7,2,4,0,0,0
1,1,491,7,2,3,535,3,0
1,1,492,7,1,3,491,1,0
1,1,493,7,1,1,460,1,0
1,1,494,7,2,2,450,3,0
1,1,495,7,1,3,461,1,0
1,1,496,7,2,3,468,3,0
1,1,497,7,1,4,0,0,0
1,1,498,7,1,1,522,1,0
1,1,499,7,2,2,507,3,0
1,1,500,7,1,4,0,0,0
1,1,501,7,2,2,533,3,0
1,1,502,7,1,3,486,1,0
1,1,503,7,2,2,479,3,0
1,1,504,7,1,3,409,1,0
1,1,505,8,1,4,0,0,0
1,1,506,8,1,4,0,0,0
1,1,507,8,2,3,641,3,0
1,1,508,8,2,2,453,1,1
1,1,509,8,1,3,507,1,0
1,1,510,8,2,1,478,3,0
1,1,511,8,2,4,0,0,0
1,1,512,8,2,3,554,3,0
1,1,513,8,1,3,429,1,0
1,1,514,8,1,2,484,1,0
1,1,515,8,2,4,0,0,0
1,1,516,8,1,4,0,0,0
1,1,517,8,2,1,664,3,0
1,1,518,8,2,3,653,3,0
1,1,519,8,2,3,508,3,0
1,1,520,8,2,4,0,0,0
1,1,521,8,1,1,538,1,0
1,1,522,8,2,1,499,3,0
1,1,523,8,1,4,0,0,0
1,1,524,8,2,1,505,3,0
1,1,525,8,2,1,600,3,0
1,1,526,8,1,4,0,0,0
1,1,527,8,1,3,479,1,0
1,1,528,8,2,3,505,3,0
1,1,529,8,2,2,552,3,0
1,1,530,8,2,2,451,3,0
1,1,531,8,1,2,497,1,0
1,1,532,8,2,4,0,0,0
1,1,533,8,1,1,484,1,0
1,1,534,8,2,4,0,0,0
1,1,535,8,2,2,533,3,0
1,1,536,8,2,1,525,1,1
1,1,537,8,2,2,523,3,0
1,1,538,8,2,3,548,3,0
1,1,539,8,2,4,0,0,0
1,1,540,8,1,3,596,1,0
1,1,541,8,1,1,641,1,0
1,1,542,8,1,2,517,1,0
1,1,543,8,2,3,510,3,0
1,1,544,8,2,1,539,3,0
1,1,545,8,2,4,0,0,0
1,1,546,8,1,2,539,1,0
1,1,547,8,2,1,698,3,0
1,1,548,8,1,1,850,1,0
1,1,549,8,1,2,467,1,0
1,1,550,8,1,3,557,1,0
1,1,551,8,1,3,458,1,0
1,1,552,8,2,3,554,3,0
1,1,553,8,1,2,563,1,0
1,1,554,8,1,1,630,1,0
1,1,555,8,2,3,522,3,0
1,1,556,8,1,3,498,1,0
1,1,557,8,1,4,0,0,0
1,1,558,8,2,2,543,3,0
1,1,559,8,2,1,550,3,0
1,1,560,8,1,2,490,1,0
1,1,561,8,2,2,477,3,0
1,1,562,8,2,1,546,3,0
1,1,563,8,2,1,598,3,0
1,1,564,8,1,4,0,0,0
1,1,565,8,1,1,551,1,0
1,1,566,8,1,4,0,0,0
1,1,567,8,1,1,661,1,0
1,1,568,8,2,1,442,3,0
1,1,569,8,1,2,573,1,0
1,1,570,8,2,3,519,3,0
1,1,571,8,2,3,592,3,0
1,1,572,8,2,1,538,3,0
1,1,573,8,1,1,473,1,0
1,1,574,8,1,3,531,1,0
1,1,575,8,2,3,436,3,0
1,1,576,8,2,2,453,3,0
1,2,1,1,1,1,572,1,0
1,2,2,1,2,1,504,3,0
1,2,3,1,2,2,501,1,1
1,2,4,1,1,3,512,1,0
1,2,5,1,2,2,501,3,0
1,2,6,1,1,2,662,1,0
1,2,7,1,2,3,516,3,0
1,2,8,1,2,2,489,3,0
1,2,9,1,1,3,523,1,0
1,2,10,1,2,1,458,3,0
1,2,11,1,2,2,531,3,0
1,2,12,1,2,2,477,3,0
1,2,13,1,2,2,550,3,0
1,2,14,1,1,3,452,1,0
1,2,15,1,1,1,767,1,0
1,2,16,1,2,3,526,3,0
1,2,17,1,1,4,0,0,0
1,2,18,1,1,3,486,1,0
1,2,19,1,2,2,487,3,0
1,2,20,1,2,3,503,3,0
1,2,21,1,1,3,612,1,0
1,2,22,1,2,4,0,0,0
1,2,23,1,1,4,0,0,0
1,2,24,1,2,1,675,1,1
1,2,25,1,1,2,571,1,0
1,2,26,1,2,4,0,0,0
1,2,27,1,1,4,0,0,0
1,2,28,1,1,1,635,1,0
1,2,29,1,2,1,502,3,0
1,2,30,1,2,3,556,3,0
1,2,31,1,1,1,695,1,0
1,2,32,1,1,4,0,0,0
1,2,33,1,2,1,534,3,0
1,2,34,1,2,1,540,3,0
1,2,35,1,1,4,0,0,0
1,2,36,1,1,1,487,1,0
1,2,37,1,1,2,525,1,0
1,2,38,1,2,4,0,0,0
1,2,39,1,2,2,610,3,0
1,2,40,1,2,4,0,0,0
1,2,41,1,1,4,0,0,0
1,2,42,1,1,4,0,0,0
1,2,43,1,2,4,0,0,0
1,2,44,1,1,1,615,1,0
1,2,45,1,2,2,543,3,0
1,2,46,1,1,1,506,1,0
1,2,47,1,2,2,485,3,0
1,2,48,1,1,4,0,0,0
1,2,49,1,2,3,575,3,0
1,2,50,1,2,1,550,1,1
1,2,51,1,1,1,584,1,0
1,2,52,1,1,3,532,1,0
1,2,53,1,1,1,429,1,0
1,2,54,1,2,1,527,3,0
1,2,55,1,2,3,520,3,0
1,2,56,1,2,4,0,0,0
1,2,57,1,2,2,467,3,0
1,2,58,1,1,4,0,0,0
1,2,59,1,2,3,549,3,0
1,2,60,1,1,1,460,1,0
1,2,61,1,1,2,723,1,0
1,2,62,1,2,4,0,0,0
1,2,63,1,2,2,559,3,0
1,2,64,1,1,1,540,1,0
1,2,65,1,1,3,532,1,0
1,2,66,1,2,4,0,0,0
1,2,67,1,1,3,463,1,0
1,2,68,1,1,2,578,1,0
1,2,69,1,2,3,490,3,0
1,2,70,1,1,4,0,0,0
1,2,71,1,1,1,505,1,0
1,2,72,1,2,3,523,3,0
1,2,73,2,2,2,558,3,0
1,2,74,2,2,4,0,0,0
1,2,75,2,2,2,514,3,0
1,2,76,2,1,4,0,0,0
1,2,77,2,2,2,535,3,0
1,2,78,2,1,2,478,1,0
1,2,79,2,1,2,432,1,0
1,2,80,2,1,1,551,1,0
1,2,81,2,2,4,0,0,0
1,2,82,2,1,3,488,1,0
1,2,83,2,1,1,440,1,0
1,2,84,2,2,3,453,3,0
1,2,85,2,1,4,0,0,0
1,2,86,2,2,2,564,3,0
1,2,87,2,1,4,0,0,0
1,2,88,2,2,1,574,3,0
1,2,89,2,2,1,485,3,0
1,2,90,2,1,2,440,1,0
1,2,91,2,2,3,492,3,0
1,2,92,2,1,3,477,1,0
1,2,93,2,1,1,501,3,1
1,2,94,2,1,2,553,1,0
1,2,95,2,2,1,484,3,0
1,2,96,2,1,3,644,1,0
1,2,97,2,2,3,517,3,0
1,2,98,2,2,4,0,0,0
1,2,99,2,2,1,498,3,0
1,2,100,2,1,3,550,1,0
1,2,101,2,2,2,587,3,0
1,2,102,2,1,2,585,1,0
1,2,103,2,1,3,516,1,0
1,2,104,2,2,4,0,0,0
1,2,105,2,1,3,461,1,0
1,2,106,2,1,3,433,1,0
1,2,107,2,1,2,548,1,0
1,2,108,2,2,2,462,3,0
1,2,109,2,2,4,0,0,0
1,2,110,2,2,1,525,3,0
1,2,111,2,2,2,488,3,0
1,2,112,2,2,3,506,3,0
1,2,113,2,2,4,0,0,0
1,2,114,2,1,2,477,1,0
1,2,115,2,1,2,446,1,0
1,2,116,2,1,4,0,0,0
1,2,117,2,2,2,480,3,0
1,2,118,2,2,3,497,3,0
1,2,119,2,1,4,0,0,0
1,2,120,2,2,2,504,3,0
1,2,121,2,2,4,0,0,0
1,2,122,2,2,1,520,3,0
1,2,123,2,2,4,0,0,0
1,2,124,2,1,3,511,1,0
1,2,125,2,2,4,0,0,0
1,2,126,2,1,1,498,1,0
1,2,127,2,2,1,382,1,1
1,2,128,2,1,2,456,3,1
1,2,129,2,2,4,0,0,0
1,2,130,2,1,1,540,1,0
1,2,131,2,1,4,0,0,0
1,2,132,2,2,3,491,3,0
1,2,133,2,2,2,694,3,0
1,2,134,2,1,4,0,0,0
1,2,135,2,2,3,522,3,0
1,2,136,2,1,3,399,1,0
1,2,137,2,1,4,0,0,0
1,2,138,2,1,1,480,1,0
1,2,139,2,1,1,476,1,0
1,2,140,2,1,3,431,1,0
1,2,141,2,1,2,453,1,0
1,2,142,2,1,2,518,1,0
1,2,143,2,1,2,479,1,0
1,2,144,2,2,3,467,3,0
1,2,145,3,1,4,0,0,0
1,2,146,3,1,3,568,1,0
1,2,147,3,2,4,0,0,0
1,2,148,3,2,1,587,3,0
1,2,149,3,2,4,0,0,0
1,2,150,3,2,2,662,3,0
1,2,151,3,2,1,550,3,0
1,2,152,3,1,4,0,0,0
1,2,153,3,2,4,0,0,0
1,2,154,3,2,4,0,0,0
1,2,155,3,2,2,479,3,0
1,2,156,3,1,3,512,1,0
1,2,157,3,1,4,0,0,0
1,2,158,3,2,4,0,0,0
1,2,159,3,2,3,511,3,0
1,2,160,3,1,2,513,1,0
1,2,161,3,2,1,502,3,0
1,2,162,3,1,4,0,0,0
1,2,163,3,1,1,518,1,0
1,2,164,3,1,3,447,1,0
1,2,165,3,2,2,450,3,0
1,2,166,3,2,1,548,3,0
1,2,167,3,1,2,431,1,0
1,2,168,3,1,3,686,1,0
1,2,169,3,1,3,452,1,0
1,2,170,3,1,2,493,3,1
1,2,171,3,1,2,485,1,0
1,2,172,3,1,4,0,0,0
1,2,173,3,2,1,569,3,0
1,2,174,3,1,1,474,1,0
1,2,175,3,2,2,477,3,0
1,2,176,3,2,2,577,3,0
1,2,177,3,1,4,0,0,0
1,2,178,3,1,4,0,0,0
1,2,179,3,1,4,0,0,0
1,2,180,3,1,2,504,1,0
1,2,181,3,1,4,0,0,0
1,2,182,3,1,2,509,1,0
1,2,183,3,1,1,481,1,0
1,2,184,3,2,2,486,3,0
1,2,185,3,2,1,537,3,0
1,2,186,3,2,2,497,3,0
1,2,187,3,1,2,450,1,0
1,2,188,3,1,4,0,0,0
1,2,189,3,1,1,440,1,0
1,2,190,3,2,2,441,3,0
1,2,191,3,2,1,570,3,0
1,2,192,3,2,1,468,3,0
1,2,193,3,1,4,0,0,0
1,2,194,3,2,3,477,3,0
1,2,195,3,2,1,462,3,0
1,2,196,3,2,4,0,0,0
1,2,197,3,1,3,544,1,0
1,2,198,3,1,2,483,1,0
1,2,199,3,2,3,569,1,1
1,2,200,3,1,4,0,0,0
1,2,201,3,1,3,501,1,0
1,2,202,3,2,4,0,0,0
1,2,203,3,1,1,560,1,0
1,2,204,3,2,4,0,0,0
1,2,205,3,1,3,467,1,0
1,2,206,3,2,1,477,3,0
1,2,207,3,1,2,510,1,0
1,2,208,3,2,1,498,3,0
1,2,209,3,1,3,555,1,0
1,2,210,3,2,4,0,0,0
1,2,211,3,2,1,496,3,0
1,2,212,3,2,2,620,3,0
1,2,213,3,2,2,661,3,0
1,2,214,3,2,2,469,3,0
1,2,215,3,1,4,0,0,0
1,2,216,3,2,3,472,3,0
1,2,217,4,2,2,544,3,0
1,2,218,4,1,3,548,1,0
1,2,219,4,2,3,487,3,0
1,2,220,4,1,3,517,1,0
1,2,221,4,2,3,606,3,0
1,2,222,4,1,4,0,0,0
1,2,223,4,1,3,565,3,1
1,2,224,4,2,1,605,3,0
1,2,225,4,1,4,0,0,0
1,2,226,4,2,2,579,3,0
1,2,227,4,1,2,476,1,0
1,2,228,4,2,3,542,3,0
1,2,229,4,1,3,507,1,0
1,2,230,4,2,2,480,3,0
1,2,231,4,1,1,452,1,0
1,2,232,4,2,3,499,3,0
1,2,233,4,2,3,577,3,0
1,2,234,4,1,3,526,1,0
1,2,235,4,2,4,0,0,0
1,2,236,4,2,4,0,0,0
1,2,237,4,2,1,553,3,0
1,2,238,4,2,3,565,3,0
1,2,239,4,1,3,452,1,0
1,2,240,4,2,1,477,3,0
1,2,241,4,1,1,717,1,0
1,2,242,4,1,4,0,0,0
1,2,243,4,2,1,520,3,0
1,2,244,4,2,1,370,3,0
1,2,245,4,2,1,387,3,0
1,2,246,4,2,1,528,3,0
1,2,247,4,2,1,446,1,1
1,2,248,4,1,1,708,1,0
1,2,249,4,2,1,419,3,0
1,2,250,4,2,3,409,3,0
1,2,251,4,2,3,548,3,0
1,2,252,4,1,1,558,1,0
1,2,253,4,1,2,521,1,0
1,2,254,4,1,4,0,0,0
1,2,255,4,1,4,0,0,0
1,2,256,4,2,3,482,3,0
1,2,257,4,1,4,0,0,0
1,2,258,4,2,2,542,3,0
1,2,259,4,2,1,437,3,0
1,2,260,4,2,2,478,3,0
1,2,261,4,1,2,506,1,0
1,2,262,4,1,1,589,1,0
1,2,263,4,2,1,527,3,0
1,2,264,4,2,1,462,3,0
1,2,265,4,2,2,439,3,0
1,2,266,4,1,3,439,1,0
1,2,267,4,2,2,496,3,0
1,2,268,4,1,1,414,1,0
1,2,269,4,1,2,533,3,1
1,2,270,4,2,4,0,0,0
1,2,271,4,2,1,621,3,0
1,2,272,4,2,3,540,3,0
1,2,273,4,2,2,452,3,0
1,2,274,4,2,3,483,3,0
1,2,275,4,2,2,555,3,0
1,2,276,4,1,1,480,1,0
1,2,277,4,2,4,0,0,0
1,2,278,4,1,4,0,0,0
1,2,279,4,1,3,469,1,0
1,2,280,4,1,1,425,1,0
1,2,281,4,1,3,512,1,0
1,2,282,4,1,3,394,1,0
1,2,283,4,1,2,469,1,0
1,2,284,4,2,3,420,1,1
1,2,285,4,1,1,472,1,0
1,2,286,4,1,2,501,3,1
1,2,287,4,1,4,0,0,0
1,2,288,4,1,1,602,1,0
1,2,289,5,2,2,568,3,0
1,2,290,5,1,4,0,0,0
1,2,291,5,1,2,506,1,0
1,2,292,5,2,3,469,3,0
1,2,293,5,2,3,468,3,0
1,2,294,5,1,4,0,0,0
1,2,295,5,1,3,588,1,0
1,2,296,5,1,2,569,1,0
1,2,297,5,2,2,475,3,0
1,2,298,5,1,1,520,1,0
1,2,299,5,2,1,513,1,1
1,2,300,5,2,4,0,0,0
1,2,301,5,1,1,695,1,0
1,2,302,5,1,2,557,1,0
1,2,303,5,1,2,558,1,0
1,2,304,5,1,1,546,1,0
1,2,305,5,1,1,509,1,0
1,2,306,5,1,1,497,1,0
1,2,307,5,2,3,510,3,0
1,2,308,5,1,3,472,1,0
1,2,309,5,1,3,459,1,0
1,2,310,5,2,4,0,0,0
1,2,311,5,1,4,0,0,0
1,2,312,5,2,4,0,0,0
1,2,313,5,2,1,552,3,0
1,2,314,5,1,3,459,1,0
1,2,315,5,1,4,0,0,0
1,2,316,5,2,1,481,3,0
1,2,317,5,1,2,470,1,0
1,2,318,5,2,3,507,3,0
1,2,319,5,2,4,0,0,0
1,2,320,5,1,3,591,1,0
1,2,321,5,2,4,0,0,0
1,2,322,5,2,2,506,3,0
1,2,323,5,1,1,572,1,0
1,2,324,5,2,1,445,3,0
1,2,325,5,1,3,592,1,0
1,2,326,5,2,2,510,3,0
1,2,327,5,2,1,469,3,0
1,2,328,5,2,3,724,3,0
1,2,329,5,1,1,492,1,0
1,2,330,5,2,3,455,3,0
1,2,331,5,2,4,0,0,0
1,2,332,5,2,3,441,3,0
1,2,333,5,2,3,500,3,0
1,2,334,5,2,1,571,3,0
1,2,335,5,1,3,499,1,0
1,2,336,5,1,4,0,0,0
1,2,337,5,1,1,520,1,0
1,2,338,5,2,3,568,3,0
1,2,339,5,2,3,491,3,0
1,2,340,5,1,2,481,1,0
1,2,341,5,1,3,524,1,0
1,2,342,5,1,3,503,1,0
1,2,343,5,2,4,0,0,0
1,2,344,5,2,4,0,0,0
1,2,345,5,1,4,0,0,0
1,2,346,5,2,2,464,3,0
1,2,347,5,1,1,420,1,0
1,2,348,5,2,3,505,3,0
1,2,349,5,2,3,468,3,0
1,2,350,5,1,3,414,1,0
1,2,351,5,1,4,0,0,0
1,2,352,5,2,1,501,3,0
1,2,353,5,1,2,516,1,0
1,2,354,5,1,4,0,0,0
1,2,355,5,2,3,544,3,0
1,2,356,5,1,1,607,1,0
1,2,357,5,2,4,0,0,0
1,2,358,5,1,4,0,0,0
1,2,359,5,1,2,478,1,0
1,2,360,5,1,2,530,3,1
1,2,361,6,1,3,460,1,0
1,2,362,6,1,4,0,0,0
1,2,363,6,1,2,451,1,0
1,2,364,6,1,4,0,0,0
1,2,365,6,2,2,560,3,0
1,2,366,6,2,4,0,0,0
1,2,367,6,1,2,474,1,0
1,2,368,6,1,2,579,1,0
1,2,369,6,2,2,459,3,0
1,2,370,6,2,3,488,1,1
1,2,371,6,2,2,532,3,0
1,2,372,6,1,4,0,0,0
1,2,373,6,2,3,723,3,0
1,2,374,6,1,3,559,1,0
1,2,375,6,2,1,599,3,0
1,2,376,6,1,2,530,1,0
1,2,377,6,1,4,0,0,0
1,2,378,6,2,4,0,0,0
1,2,379,6,2,2,561,3,0
1,2,380,6,2,3,541,3,0
1,2,381,6,1,1,524,1,0
1,2,382,6,2,4,0,0,0
1,2,383,6,2,2,502,3,0
1,2,384,6,1,4,0,0,0
1,2,385,6,2,4,0,0,0
1,2,386,6,1,2,505,1,0
1,2,387,6,2,2,542,3,0
1,2,388,6,2,2,453,3,0
1,2,389,6,1,4,0,0,0
1,2,390,6,2,1,599,3,0
1,2,391,6,1,4,0,0,0
1,2,392,6,2,3,556,3,0
1,2,393,6,2,4,0,0,0
1,2,394,6,2,1,485,3,0
1,2,395,6,1,1,487,1,0
1,2,396,6,2,1,406,3,0
1,2,397,6,1,2,415,3,1
1,2,398,6,2,4,0,0,0
1,2,399,6,1,1,497,1,0
1,2,400,6,1,3,529,1,0
1,2,401,6,1,4,0,0,0
1,2,402,6,1,2,518,1,0
1,2,403,6,1,2,434,1,0
1,2,404,6,2,1,507,3,0
1,2,405,6,1,4,0,0,0
1,2,406,6,1,3,480,1,0
1,2,407,6,1,1,588,1,0
1,2,408,6,1,3,495,1,0
1,2,409,6,2,4,0,0,0
1,2,410,6,1,3,456,1,0
1,2,411,6,1,1,424,1,0
1,2,412,6,1,2,477,1,0
1,2,413,6,1,2,390,1,0
1,2,414,6,1,4,0,0,0
1,2,415,6,2,1,526,3,0
1,2,416,6,1,3,479,1,0
1,2,417,6,1,3,490,1,0
1,2,418,6,1,3,404,1,0
1,2,419,6,1,2,469,1,0
1,2,420,6,1,2,516,1,0
1,2,421,6,2,4,0,0,0
1,2,422,6,2,4,0,0,0
1,2,423,6,2,2,486,3,0
1,2,424,6,1,4,0,0,0
1,2,425,6,2,4,0,0,0
1,2,426,6,1,3,511,1,0
1,2,427,6,1,3,396,1,0
1,2,428,6,1,4,0,0,0
1,2,429,6,1,4,0,0,0
1,2,430,6,1,4,0,0,0
1,2,431,6,2,2,439,3,0
1,2,432,6,1,1,491,1,0
1,2,433,7,2,3,482,3,0
1,2,434,7,2,1,507,3,0
1,2,435,7,1,1,517,1,0
1,2,436,7,2,2,536,3,0
1,2,437,7,1,3,548,3,1
1,2,438,7,2,3,758,3,0
1,2,439,7,1,1,559,1,0
1,2,440,7,1,4,0,0,0
1,2,441,7,2,3,631,3,0
1,2,442,7,2,3,556,3,0
1,2,443,7,1,2,484,1,0
1,2,444,7,2,3,515,3,0
1,2,445,7,1,1,477,1,0
1,2,446,7,2,4,0,0,0
1,2,447,7,2,2,616,3,0
1,2,448,7,2,3,553,3,0
1,2,449,7,2,3,495,3,0
1,2,450,7,1,4,0,0,0
1,2,451,7,2,4,0,0,0
1,2,452,7,2,4,0,0,0
1,2,453,7,2,4,0,0,0
1,2,454,7,2,1,490,1,1
1,2,455,7,2,1,502,3,0
1,2,456,7,1,2,475,1,0
1,2,457,7,1,1,589,1,0
1,2,458,7,2,2,472,3,0
1,2,459,7,1,3,499,1,0
1,2,460,7,1,2,553,1,0
1,2,461,7,2,4,0,0,0
1,2,462,7,2,4,0,0,0
1,2,463,7,1,4,0,0,0
1,2,464,7,2,2,554,3,0
1,2,465,7,2,2,519,3,0
1,2,466,7,1,2,483,1,0
1,2,467,7,1,2,524,1,0
1,2,468,7,2,1,514,3,0
1,2,469,7,2,2,571,3,0
1,2,470,7,1,2,444,1,0
1,2,471,7,1,1,532,1,0
1,2,472,7,1,4,0,0,0
1,2,473,7,2,4,0,0,0
1,2,474,7,2,4,0,0,0
1,2,475,7,2,4,0,0,0
1,2,476,7,1,1,529,1,0
1,2,477,7,2,4,0,0,0
1,2,478,7,2,1,510,3,0
1,2,479,7,1,2,524,1,0
1,2,480,7,1,1,539,1,0
1,2,481,7,2,3,535,3,0
1,2,482,7,2,1,508,3,0
1,2,483,7,2,3,543,3,0
1,2,484,7,1,2,661,1,0
1,2,485,7,2,3,502,3,0
1,2,486,7,1,3,530,1,0
1,2,487,7,1,4,0,0,0
1,2,488,7,2,3,529,3,0
1,2,489,7,1,4,0,0,0
1,2,490,7,1,2,476,1,0
1,2,491,7,2,3,452,3,0
1,2,492,7,2,4,0,0,0
1,2,493,7,2,2,619,3,0
1,2,494,7,1,4,0,0,0
1,2,495,7,2,1,487,3,0
1,2,496,7,2,4,0,0,0
1,2,497,7,1,2,560,1,0
1,2,498,7,1,3,445,1,0
1,2,499,7,2,4,0,0,0
1,2,500,7,2,3,496,3,0
1,2,501,7,1,1,622,1,0
1,2,502,7,1,1,645,1,0
1,2,503,7,1,4,0,0,0
1,2,504,7,2,1,521,3,0
1,2,505,8,1,3,483,1,0
1,2,506,8,2,3,495,3,0
1,2,507,8,2,1,528,1,1
1,2,508,8,2,3,486,3,0
1,2,509,8,2,3,550,3,0
1,2,510,8,2,1,509,3,0
1,2,511,8,1,1,433,1,0
1,2,512,8,2,2,652,3,0
1,2,513,8,2,2,443,3,0
1,2,514,8,2,1,395,3,0
1,2,515,8,1,1,398,1,0
1,2,516,8,2,4,0,0,0
1,2,517,8,1,1,413,3,1
1,2,518,8,2,2,451,3,0
1,2,519,8,1,3,473,1,0
1,2,520,8,2,3,452,3,0
1,2,521,8,1,1,522,1,0
1,2,522,8,1,3,429,1,0
1,2,523,8,1,2,548,1,0
1,2,524,8,1,1,400,1,0
1,2,525,8,2,2,411,3,0
1,2,526,8,2,1,556,1,1
1,2,527,8,2,4,0,0,0
1,2,528,8,1,2,636,1,0
1,2,529,8,1,3,468,1,0
1,2,530,8,1,1,495,1,0
1,2,531,8,1,3,395,1,0
1,2,532,8,1,2,448,1,0
1,2,533,8,1,1,462,1,0
1,2,534,8,1,1,471,1,0
1,2,535,8,2,3,478,3,0
1,2,536,8,2,4,0,0,0
1,2,537,8,2,3,436,3,0
1,2,538,8,1,1,485,1,0
1,2,539,8,2,1,430,3,0
1,2,540,8,1,2,420,1,0
1,2,541,8,2,2,465,1,1
1,2,542,8,2,3,475,3,0
1,2,543,8,1,2,454,1,0
1,2,544,8,2,4,0,0,0
1,2,545,8,2,2,482,3,0
1,2,546,8,1,1,477,1,0
1,2,547,8,2,4,0,0,0
1,2,548,8,2,1,520,3,0
1,2,549,8,1,1,416,1,0
1,2,550,8,2,1,441,3,0
1,2,551,8,2,2,489,3,0
1,2,552,8,1,3,458,1,0
1,2,553,8,2,4,0,0,0
1,2,554,8,1,3,597,1,0
1,2,555,8,2,2,697,3,0
1,2,556,8,1,4,0,0,0
1,2,557,8,2,4,0,0,0
1,2,558,8,2,1,438,3,0
1,2,559,8,1,2,587,1,0
1,2,560,8,1,3,533,1,0
1,2,561,8,2,3,510,3,0
1,2,562,8,2,1,434,3,0
1,2,563,8,2,4,0,0,0
1,2,564,8,1,3,499,1,0
1,2,565,8,1,1,460,1,0
1,2,566,8,2,2,474,3,0
1,2,567,8,2,1,517,3,0
1,2,568,8,1,2,488,1,0
1,2,569,8,1,3,518,1,0
1,2,570,8,1,4,0,0,0
1,2,571,8,2,1,557,3,0
1,2,572,8,1,1,521,3,1
1,2,573,8,2,3,473,3,0
1,2,574,8,1,2,506,1,0
1,2,575,8,2,4,0,0,0
1,2,576,8,1,2,480,1,0
1,3,1,1,1,3,510,1,0
1,3,2,1,2,2,456,3,0
1,3,3,1,2,3,529,1,1
1,3,4,1,2,1,597,3,0
1,3,5,1,1,3,509,1,0
1,3,6,1,2,2,436,3,0
1,3,7,1,2,3,481,3,0
1,3,8,1,2,1,451,3,0
1,3,9,1,1,4,0,0,0
1,3,10,1,2,4,0,0,0
1,3,11,1,1,2,548,1,0
1,3,12,1,1,3,537,1,0
1,3,13,1,1,2,495,1,0
1,3,14,1,1,2,472,3,1
1,3,15,1,2,3,496,3,0
1,3,16,1,2,2,464,3,0
1,3,17,1,1,1,495,1,0
1,3,18,1,2,4,0,0,0
1,3,19,1,2,1,782,3,0
1,3,20,1,2,3,510,3,0
1,3,21,1,2,1,545,3,0
1,3,22,1,2,2,451,3,0
1,3,23,1,2,3,478,3,0
1,3,24,1,1,4,0,0,0
1,3,25,1,2,1,511,3,0
1,3,26,1,2,3,605,3,0
1,3,27,1,1,3,436,1,0
1,3,28,1,2,2,424,3,0
1,3,29,1,2,1,479,3,0
1,3,30,1,1,2,456,3,1
1,3,31,1,1,4,0,0,0
1,3,32,1,1,1,490,1,0
1,3,33,1,2,2,448,3,0
1,3,34,1,2,1,457,3,0
1,3,35,1,1,2,462,1,0
1,3,36,1,2,4,0,0,0
1,3,37,1,2,2,474,3,0
1,3,38,1,1,3,463,1,0
1,3,39,1,1,1,494,1,0
1,3,40,1,2,1,474,3,0
1,3,41,1,2,3,547,3,0
1,3,42,1,2,2,489,1,1
1,3,43,1,2,4,0,0,0
1,3,44,1,2,1,491,3,0
1,3,45,1,2,4,0,0,0
1,3,46,1,2,2,468,3,0
1,3,47,1,2,4,0,0,0
1,3,48,1,2,2,475,3,0
1,3,49,1,1,4,0,0,0
1,3,50,1,2,4,0,0,0
1,3,51,1,1,3,451,1,0
1,3,52,1,2,4,0,0,0
1,3,53,1,2,1,570,3,0
1,3,54,1,1,2,469,1,0
1,3,55,1,1,1,537,1,0
1,3,56,1,1,4,0,0,0
1,3,57,1,2,2,622,3,0
1,3,58,1,1,3,469,1,0
1,3,59,1,1,4,0,0,0
1,3,60,1,2,1,547,3,0
1,3,61,1,1,3,440,1,0
1,3,62,1,1,3,405,1,0
1,3,63,1,1,2,533,1,0
1,3,64,1,2,1,470,3,0
1,3,65,1,2,1,514,3,0
1,3,66,1,1,4,0,0,0
1,3,67,1,1,3,427,1,0
1,3,68,1,2,1,606,3,0
1,3,69,1,2,1,564,3,0
1,3,70,1,2,4,0,0,0
1,3,71,1,2,2,467,1,1
1,3,72,1,1,3,795,1,0
1,3,73,2,2,3,557,3,0
1,3,74,2,2,2,512,1,1
1,3,75,2,1,1,508,1,0
1,3,76,2,1,1,558,1,0
1,3,77,2,1,4,0,0,0
1,3,78,2,2,4,0,0,0
1,3,79,2,2,3,677,3,0
1,3,80,2,2,3,422,3,0
1,3,81,2,1,4,0,0,0
1,3,82,2,1,2,547,1,0
1,3,83,2,1,1,745,1,0
1,3,84,2,2,2,496,3,0
1,3,85,2,1,4,0,0,0
1,3,86,2,1,2,516,1,0
1,3,87,2,2,2,719,3,0
1,3,88,2,2,4,0,0,0
1,3,89,2,2,4,0,0,0
1,3,90,2,1,4,0,0,0
1,3,91,2,2,1,877,3,0
1,3,92,2,1,1,502,1,0
1,3,93,2,2,3,588,3,0
1,3,94,2,2,1,551,3,0
1,3,95,2,2,2,609,3,0
1,3,96,2,1,4,0,0,0
1,3,97,2,2,2,460,3,0
1,3,98,2,1,3,491,1,0
1,3,99,2,1,3,611,1,0
1,3,100,2,1,1,562,1,0
1,3,101,2,2,2,628,3,0
1,3,102,2,2,2,571,3,0
1,3,103,2,2,4,0,0,0
1,3,104,2,2,3,547,3,0
1,3,105,2,2,3,544,3,0
1,3,106,2,2,1,533,3,0
1,3,107,2,1,4,0,0,0
1,3,108,2,1,4,0,0,0
1,3,109,2,1,2,683,1,0
1,3,110,2,2,3,628,3,0
1,3,111,2,2,2,550,3,0
1,3,112,2,1,2,547,1,0
1,3,113,2,2,3,773,3,0
1,3,114,2,2,4,0,0,0
1,3,115,2,2,4,0,0,0
1,3,116,2,2,3,536,3,0
1,3,117,2,1,1,441,1,0
1,3,118,2,1,1,859,3,1
1,3,119,2,1,1,561,1,0
1,3,120,2,1,4,0,0,0
1,3,121,2,2,1,606,3,0
1,3,122,2,2,3,640,3,0
1,3,123,2,2,3,581,3,0
1,3,124,2,1,3,553,1,0
1,3,125,2,2,2,490,1,1
1,3,126,2,2,1,616,3,0
1,3,127,2,1,1,532,1,0
1,3,128,2,2,2,613,3,0
1,3,129,2,1,2,717,1,0
1,3,130,2,1,1,514,1,0
1,3,131,2,2,1,562,3,0
1,3,132,2,1,2,563,1,0
1,3,133,2,1,3,669,1,0
1,3,134,2,1,4,0,0,0
1,3,135,2,1,4,0,0,0
1,3,136,2,2,3,538,3,0
1,3,137,2,1,3,505,1,0
1,3,138,2,2,1,653,3,0
1,3,139,2,1,2,572,1,0
1,3,140,2,1,4,0,0,0
1,3,141,2,1,1,568,1,0
1,3,142,2,1,4,0,0,0
1,3,143,2,1,3,589,1,0
1,3,144,2,1,4,0,0,0
1,3,145,3,2,4,0,0,0
1,3,146,3,2,1,539,1,1
1,3,147,3,2,3,503,3,0
1,3,148,3,1,1,501,1,0
1,3,149,3,1,1,470,1,0
1,3,150,3,2,4,0,0,0
1,3,151,3,1,1,504,1,0
1,3,152,3,1,3,467,1,0
1,3,153,3,1,4,0,0,0
1,3,154,3,2,3,442,3,0
1,3,155,3,2,4,0,0,0
1,3,156,3,1,2,616,1,0
1,3,157,3,1,4,0,0,0
1,3,158,3,2,1,495,3,0
1,3,159,3,2,4,0,0,0
1,3,160,3,2,2,624,3,0
1,3,161,3,2,1,538,3,0
1,3,162,3,2,4,0,0,0
1,3,163,3,2,4,0,0,0
1,3,164,3,2,1,639,3,0
1,3,165,3,2,2,475,3,0
1,3,166,3,2,4,0,0,0
1,3,167,3,1,3,484,1,0
1,3,168,3,2,2,493,3,0
1,3,169,3,1,2,697,1,0
1,3,170,3,2,1,600,3,0
1,3,171,3,1,2,560,1,0
1,3,172,3,2,3,545,3,0
1,3,173,3,1,2,563,1,0
1,3,174,3,1,1,572,1,0
1,3,175,3,2,3,511,3,0
1,3,176,3,2,3,705,3,0
1,3,177,3,2,1,477,3,0
1,3,178,3,2,4,0,0,0
1,3,179,3,2,2,522,3,0
1,3,180,3,2,4,0,0,0
1,3,181,3,1,2,587,1,0
1,3,182,3,2,4,0,0,0
1,3,183,3,1,4,0,0,0
1,3,184,3,1,3,694,1,0
1,3,185,3,2,1,524,3,0
1,3,186,3,1,4,0,0,0
1,3,187,3,1,2,491,1,0
1,3,188,3,2,1,443,3,0
1,3,189,3,2,3,510,1,1
1,3,190,3,2,1,544,3,0
1,3,191,3,1,2,543,1,0
1,3,192,3,1,3,509,1,0
1,3,193,3,2,3,514,3,0
1,3,194,3,1,4,0,0,0
1,3,195,3,1,1,506,1,0
1,3,196,3,1,2,617,1,0
1,3,197,3,2,2,464,3,0
1,3,198,3,1,4,0,0,0
1,3,199,3,1,2,514,1,0
1,3,200,3,1,2,509,1,0
1,3,201,3,2,4,0,0,0
1,3,202,3,1,3,554,1,0
1,3,203,3,1,2,486,1,0
1,3,204,3,1,3,465,1,0
1,3,205,3,2,1,516,3,0
1,3,206,3,1,4,0,0,0
1,3,207,3,2,2,522,3,0
1,3,208,3,2,4,0,0,0
1,3,209,3,2,2,505,3,0
1,3,210,3,1,1,471,1,0
1,3,211,3,1,2,510,1,0
1,3,212,3,2,4,0,0,0
1,3,213,3,2,2,667,3,0
1,3,214,3,2,2,521,3,0
1,3,215,3,1,4,0,0,0
1,3,216,3,1,4,0,0,0
1,3,217,4,1,3,556,3,1
1,3,218,4,2,3,532,3,0
1,3,219,4,2,3,469,3,0
1,3,220,4,1,4,0,0,0
1,3,221,4,2,3,528,3,0
1,3,222,4,2,4,0,0,0
1,3,223,4,1,1,462,1,0
1,3,224,4,2,3,463,3,0
1,3,225,4,1,3,465,1,0
1,3,226,4,1,4,0,0,0
1,3,227,4,2,2,592,3,0
1,3,228,4,1,4,0,0,0
1,3,229,4,2,2,489,3,0
1,3,230,4,2,2,401,3,0
1,3,231,4,1,3,398,1,0
1,3,232,4,2,4,0,0,0
1,3,233,4,1,2,451,1,0
1,3,234,4,2,4,0,0,0
1,3,235,4,2,3,454,3,0
1,3,236,4,1,4,0,0,0
1,3,237,4,1,1,614,3,1
1,3,238,4,2,1,372,3,0
1,3,239,4,2,1,479,3,0
1,3,240,4,2,1,476,3,0
1,3,241,4,1,3,382,1,0
1,3,242,4,2,4,0,0,0
1,3,243,4,1,2,601,1,0
1,3,244,4,1,3,395,1,0
1,3,245,4,1,2,404,1,0
1,3,246,4,2,1,435,3,0
1,3,247,4,2,4,0,0,0
1,3,248,4,2,3,465,3,0
1,3,249,4,2,4,0,0,0
1,3,250,4,2,2,494,3,0
1,3,251,4,2,2,463,3,0
1,3,252,4,1,3,445,1,0
1,3,253,4,2,3,440,3,0
1,3,254,4,2,3,469,3,0
1,3,255,4,1,4,0,0,0
1,3,256,4,1,3,521,1,0
1,3,257,4,2,1,500,3,0
1,3,258,4,1,3,529,1,0
1,3,259,4,1,3,457,1,0
1,3,260,4,2,3,478,3,0
1,3,261,4,2,1,518,3,0
1,3,262,4,1,1,513,1,0
1,3,263,4,1,4,0,0,0
1,3,264,4,1,4,0,0,0
1,3,265,4,1,1,494,1,0
1,3,266,4,2,1,444,3,0
1,3,267,4,1,1,575,1,0
1,3,268,4,1,3,470,1,0
1,3,269,4,1,4,0,0,0
1,3,270,4,2,3,442,3,0
1,3,271,4,2,4,0,0,0
1,3,272,4,2,1,465,1,1
1,3,273,4,2,3,475,3,0
1,3,274,4,2,4,0,0,0
1,3,275,4,1,2,670,1,0
1,3,276,4,2,2,552,3,0
1,3,277,4,2,1,523,3,0
1,3,278,4,1,3,463,1,0
1,3,279,4,2,4,0,0,0
1,3,280,4,1,1,610,1,0
1,3,281,4,1,3,530,1,0
1,3,282,4,2,2,451,3,0
1,3,283,4,2,1,478,3,0
1,3,284,4,1,1,422,1,0
1,3,285,4,1,2,435,1,0
1,3,286,4,1,3,446,1,0
1,3,287,4,2,3,464,1,1
1,3,288,4,1,3,442,1,0
1,3,289,5,2,4,0,0,0
1,3,290,5,2,3,539,3,0
1,3,291,5,1,3,455,1,0
1,3,292,5,2,3,472,3,0
1,3,293,5,1,2,491,1,0
1,3,294,5,1,4,0,0,0
1,3,295,5,1,3,521,1,0
1,3,296,5,1,3,446,1,0
1,3,297,5,1,2,493,1,0
1,3,298,5,2,3,455,3,0
1,3,299,5,1,3,510,1,0
1,3,300,5,2,3,469,3,0
1,3,301,5,1,3,569,1,0
1,3,302,5,1,1,452,1,0
1,3,303,5,1,4,0,0,0
1,3,304,5,2,3,468,3,0
1,3,305,5,2,1,457,3,0
1,3,306,5,1,4,0,0,0
1,3,307,5,1,4,0,0,0
1,3,308,5,1,2,600,1,0
1,3,309,5,1,3,499,1,0
1,3,310,5,2,3,481,3,0
1,3,311,5,1,1,468,1,0
1,3,312,5,2,1,465,3,0
1,3,313,5,1,1,471,1,0
1,3,314,5,2,4,0,0,0
1,3,315,5,1,1,430,1,0
1,3,316,5,1,4,0,0,0
1,3,317,5,1,4,0,0,0
1,3,318,5,1,3,431,1,0
1,3,319,5,2,2,587,3,0
1,3,320,5,1,1,480,1,0
1,3,321,5,1,2,514,1,0
1,3,322,5,1,3,451,1,0
1,3,323,5,2,3,506,3,0
1,3,324,5,1,4,0,0,0
1,3,325,5,1,2,516,1,0
1,3,326,5,1,2,425,1,0
1,3,327,5,1,3,516,1,0
1,3,328,5,2,3,470,3,0
1,3,329,5,1,4,0,0,0
1,3,330,5,1,1,445,1,0
1,3,331,5,1,2,453,1,0
1,3,332,5,2,2,428,3,0
1,3,333,5,2,1,547,3,0
1,3,334,5,2,1,471,3,0
1,3,335,5,2,1,434,3,0
1,3,336,5,2,3,500,3,0
1,3,337,5,1,4,0,0,0
1,3,338,5,2,4,0,0,0
1,3,339,5,1,1,543,1,0
1,3,340,5,2,1,486,3,0
1,3,341,5,1,1,508,1,0
1,3,342,5,1,3,497,1,0
1,3,343,5,2,1,526,3,0
1,3,344,5,2,2,572,3,0
1,3,345,5,1,4,0,0,0
1,3,346,5,2,4,0,0,0
1,3,347,5,1,3,563,1,0
1,3,348,5,2,2,467,3,0
1,3,349,5,1,1,464,1,0
1,3,350,5,1,2,515,1,0
1,3,351,5,2,1,487,3,0
1,3,352,5,2,2,514,3,0
1,3,353,5,1,2,427,1,0
1,3,354,5,2,4,0,0,0
1,3,355,5,1,2,533,1,0
1,3,356,5,1,2,414,1,0
1,3,357,5,2,2,461,3,0
1,3,358,5,2,1,457,3,0
1,3,359,5,1,4,0,0,0
1,3,360,5,2,3,486,3,0
1,3,361,6,2,3,444,3,0
1,3,362,6,1,4,0,0,0
1,3,363,6,1,1,483,1,0
1,3,364,6,2,4,0,0,0
1,3,365,6,2,2,453,3,0
1,3,366,6,2,4,0,0,0
1,3,367,6,2,3,450,3,0
1,3,368,6,1,3,417,1,0
1,3,369,6,1,3,474,1,0
1,3,370,6,1,2,558,1,0
1,3,371,6,1,1,505,1,0
1,3,372,6,2,4,0,0,0
1,3,373,6,2,1,420,3,0
1,3,374,6,2,2,596,3,0
1,3,375,6,1,2,543,1,0
1,3,376,6,2,1,453,3,0
1,3,377,6,1,1,486,3,1
1,3,378,6,2,2,500,3,0
1,3,379,6,2,3,472,3,0
1,3,380,6,1,2,463,1,0
1,3,381,6,1,3,500,1,0
1,3,382,6,1,3,570,1,0
1,3,383,6,1,3,433,1,0
1,3,384,6,1,4,0,0,0
1,3,385,6,2,3,687,3,0
1,3,386,6,1,2,514,1,0
1,3,387,6,1,1,479,1,0
1,3,388,6,2,2,667,3,0
1,3,389,6,2,4,0,0,0
1,3,390,6,1,2,562,1,0
1,3,391,6,2,4,0,0,0
1,3,392,6,1,4,0,0,0
1,3,393,6,1,4,0,0,0
1,3,394,6,1,3,493,1,0
1,3,395,6,1,4,0,0,0
1,3,396,6,2,4,0,0,0
1,3,397,6,1,2,581,1,0
1,3,398,6,1,3,466,1,0
1,3,399,6,2,1,449,1,1
1,3,400,6,1,1,513,1,0
1,3,401,6,1,2,547,1,0
1,3,402,6,1,1,566,1,0
1,3,403,6,2,1,608,3,0
1,3,404,6,1,1,457,1,0
1,3,405,6,1,4,0,0,0
1,3,406,6,2,1,590,3,0
1,3,407,6,2,1,616,3,0
1,3,408,6,1,2,593,1,0
1,3,409,6,1,2,599,1,0
1,3,410,6,2,3,522,3,0
1,3,411,6,1,1,510,1,0
1,3,412,6,2,4,0,0,0
1,3,413,6,2,1,587,3,0
1,3,414,6,2,2,450,3,0
1,3,415,6,1,2,602,1,0
1,3,416,6,2,2,619,3,0
1,3,417,6,1,1,503,1,0
1,3,418,6,1,2,458,1,0
1,3,419,6,2,1,576,3,0
1,3,420,6,1,2,503,1,0
1,3,421,6,1,2,508,1,0
1,3,422,6,1,3,462,3,1
1,3,423,6,2,2,548,3,0
1,3,424,6,1,3,527,1,0
1,3,425,6,2,3,545,3,0
1,3,426,6,2,4,0,0,0
1,3,427,6,2,2,540,3,0
1,3,428,6,1,1,488,1,0
1,3,429,6,1,3,507,1,0
1,3,430,6,1,2,522,1,0
1,3,431,6,1,4,0,0,0
1,3,432,6,2,4,0,0,0
1,3,433,7,2,2,554,3,0
1,3,434,7,1,1,461,1,0
1,3,435,7,2,1,477,3,0
1,3,436,7,2,2,656,3,0
1,3,437,7,1,4,0,0,0
1,3,438,7,1,1,512,1,0
1,3,439,7,2,3,797,3,0
1,3,440,7,1,4,0,0,0
1,3,441,7,1,2,520,1,0
1,3,442,7,1,1,536,3,1
1,3,443,7,2,3,550,3,0
1,3,444,7,2,4,0,0,0
1,3,445,7,1,1,885,1,0
1,3,446,7,1,1,557,1,0
1,3,447,7,1,3,454,1,0
1,3,448,7,2,3,506,3,0
1,3,449,7,2,4,0,0,0
1,3,450,7,2,1,547,3,0
1,3,451,7,2,3,493,3,0
1,3,452,7,2,4,0,0,0
1,3,453,7,2,1,458,3,0
1,3,454,7,2,2,649,3,0
1,3,455,7,2,2,579,3,0
1,3,456,7,1,2,484,1,0
1,3,457,7,1,2,460,1,0
1,3,458,7,1,1,485,1,0
1,3,459,7,2,4,0,0,0
1,3,460,7,2,4,0,0,0
1,3,461,7,1,1,774,3,1
1,3,462,7,2,3,511,3,0
1,3,463,7,2,1,482,3,0
1,3,464,7,1,1,563,1,0
1,3,465,7,2,2,581,3,0
1,3,466,7,1,2,558,1,0
1,3,467,7,1,3,616,1,0
1,3,468,7,2,3,655,3,0
1,3,469,7,2,2,687,3,0
1,3,470,7,1,2,960,1,0
1,3,471,7,1,2,784,3,1
1,3,472,7,2,3,540,3,0
1,3,473,7,1,1,554,1,0
1,3,474,7,2,1,631,3,0
1,3,475,7,1,2,494,1,0
1,3,476,7,1,2,542,1,0
1,3,477,7,1,1,531,1,0
1,3,478,7,1,1,781,1,0
1,3,479,7,2,4,0,0,0
1,3,480,7,1,4,0,0,0
1,3,481,7,1,4,0,0,0
1,3,482,7,2,2,638,3,0
1,3,483,7,2,3,603,3,0
1,3,484,7,1,3,493,1,0
1,3,485,7,2,3,630,3,0
1,3,486,7,2,3,584,3,0
1,3,487,7,2,2,589,3,0
1,3,488,7,1,3,515,1,0
1,3,489,7,1,4,0,0,0
1,3,490,7,1,3,486,1,0
1,3,491,7,1,4,0,0,0
1,3,492,7,1,1,605,3,1
1,3,493,7,1,3,459,1,0
1,3,494,7,2,2,535,3,0
1,3,495,7,2,4,0,0,0
1,3,496,7,2,3,586,3,0
1,3,497,7,1,1,500,1,0
1,3,498,7,1,1,689,1,0
1,3,499,7,1,2,609,1,0
1,3,500,7,2,4,0,0,0
1,3,501,7,1,1,630,1,0
1,3,502,7,1,1,488,1,0
1,3,503,7,2,3,415,3,0
1,3,504,7,1,4,0,0,0
1,3,505,8,1,3,550,1,0
1,3,506,8,1,1,576,1,0
1,3,507,8,2,2,463,3,0
1,3,508,8,2,4,0,0,0
1,3,509,8,1,2,478,1,0
1,3,510,8,1,1,1912,1,0
1,3,511,8,1,4,0,0,0
1,3,512,8,2,2,608,3,0
1,3,513,8,1,4,0,0,0
1,3,514,8,1,3,607,1,0
1,3,515,8,2,4,0,0,0
1,3,516,8,2,2,509,3,0
1,3,517,8,1,3,570,1,0
1,3,518,8,1,3,604,1,0
1,3,519,8,2,3,459,3,0
1,3,520,8,2,3,536,3,0
1,3,521,8,2,1,492,3,0
1,3,522,8,1,4,0,0,0
1,3,523,8,2,1,509,3,0
1,3,524,8,1,4,0,0,0
1,3,525,8,2,2,712,3,0
1,3,526,8,2,1,510,3,0
1,3,527,8,1,1,593,1,0
1,3,528,8,2,4,0,0,0
1,3,529,8,2,4,0,0,0
1,3,530,8,2,4,0,0,0
1,3,531,8,1,4,0,0,0
1,3,532,8,1,2,816,1,0
1,3,533,8,2,4,0,0,0
1,3,534,8,2,4,0,0,0
1,3,535,8,2,4,0,0,0
1,3,536,8,1,2,562,1,0
1,3,537,8,2,1,487,3,0
1,3,538,8,1,1,488,1,0
1,3,539,8,2,1,434,3,0
1,3,540,8,1,1,541,1,0
1,3,541,8,2,4,0,0,0
1,3,542,8,1,2,583,1,0
1,3,543,8,2,2,668,3,0
1,3,544,8,2,4,0,0,0
1,3,545,8,2,2,595,3,0
1,3,546,8,2,3,607,3,0
1,3,547,8,2,1,592,3,0
1,3,548,8,2,2,526,3,0
1,3,549,8,1,1,621,1,0
1,3,550,8,1,4,0,0,0
1,3,551,8,1,1,565,1,0
1,3,552,8,2,2,496,3,0
1,3,553,8,1,1,497,1,0
1,3,554,8,2,4,0,0,0
1,3,555,8,1,3,589,1,0
1,3,556,8,1,3,490,1,0
1,3,557,8,1,3,501,1,0
1,3,558,8,1,2,653,1,0
1,3,559,8,2,3,486,3,0
1,3,560,8,1,4,0,0,0
1,3,561,8,1,4,0,0,0
1,3,562,8,1,2,578,1,0
1,3,563,8,2,4,0,0,0
1,3,564,8,2,2,929,3,0
1,3,565,8,2,3,608,3,0
1,3,566,8,1,4,0,0,0
1,3,567,8,1,3,534,1,0
1,3,568,8,2,3,501,3,0
1,3,569,8,2,4,0,0,0
1,3,570,8,2,1,769,3,0
1,3,571,8,2,2,516,3,0
1,3,572,8,2,1,584,3,0
1,3,573,8,2,2,435,3,0
1,3,574,8,1,2,504,1,0
1,3,575,8,1,1,494,1,0
1,3,576,8,1,4,0,0,0
